select I, 1, 8
! Flux (Jy) Radius (mas)  Theta (deg)  Major FWHM (mas)  Axial ratio   Phi (deg) T \
! Freq (Hz)     SpecIndex
  0.477950    0.0199999     -180.000 
  0.201166      0.00000      0.00000 
 0.0821970    0.0200000      90.0000 
 0.0851393    0.0282842     -135.000 
 0.0122160     0.313050      63.4349 
 0.0114400     0.331059      64.9831 
0.00832406      1.20748      63.4349 
 0.0233244     0.357771      63.4350 
 0.0146698      1.18962      63.0042 
0.00764426      1.19883      62.1524 
0.00683696     0.456509      61.1892 
0.00411251      1.17184      62.5603 
 0.0151253     0.234094      70.0169 
0.00793983      1.18119      61.6992 
0.00413298     0.483735      60.2551 
0.00671552     0.511077      59.4208 
0.00940925    0.0447213     -116.565 
0.00638596      1.16362      61.2323 
0.00740349     0.555698      59.7436 
0.00288719     0.278568      68.9625 
0.00690926     0.304631      66.8014 
0.00278765      1.14612      60.7512 
0.00255188      1.12872      60.2551 
0.00361698     0.600333      60.0184 
0.00118500     0.260000      67.3801 
0.00218015    0.0894426     -116.565 
0.00324153      1.09417      59.2159 
0.00111664      1.11140      59.7436 
0.00312098     0.627694      59.3493 
0.00105383      1.24338      64.2593 
-0.0108671     0.735391      45.0000 
0.00270287      1.26143      64.6538 
0.000953074      1.08757      57.7712 
0.000939786     0.689638      60.4612 
0.00372499     0.107703     -111.801 
0.00124157      1.07703      58.6713 
0.000887923     0.672309      59.6209 
0.000887354      1.14018      52.1250 
0.00115829     0.164924      75.9638 
0.000862265      1.06677      59.5889 
 0.0133789      1.15256      51.3402 
0.000836354     0.761577      60.0685 
0.00336491     0.208806      73.3008 
0.00424233      1.03942      59.9816 
0.00155164     0.778974      60.8025 
0.00221219      1.27953      65.0372 
0.00247928     0.126491     -108.435 
0.00132409      1.30614      64.6121 
0.00139279     0.823650      60.9454 
0.00304899     0.252982      71.5650 
0.00577058      1.32424      64.9831 
0.000635365     0.868332      61.0736 
 0.0117457     0.145602     -105.945 
0.00289135     0.796994      72.4744 
0.000615424     0.895545      60.5725 
0.00326159     0.967471      60.2551 
0.00112716     0.466476      59.0362 
0.000578590     0.806226      60.2551 
0.00156360     0.493964      58.2405 
0.000555045     0.788923      59.5345 
0.00102693     0.297321      70.3462 
0.000523412     0.833547      59.7436 
0.000518720     0.816088      72.8973 
0.00145356     0.272029      72.8973 
0.00330464     0.772010      73.4429 
0.000496335     0.727186      58.4957 
0.00130768     0.922822      60.1011 
0.00213380     0.791202      73.8557 
0.000466124     0.549181      56.8887 
0.000456704     0.878180      59.9314 
0.000879040     0.316228      71.5651 
0.000443038     0.521536      57.5288 
0.000428970     0.816333      59.0362 
0.000798260     0.504777      56.3099 
0.000822059     0.291204      74.0546 
0.000409548     0.754718      57.9946 
0.00494240      1.62985      60.6039 
0.000406691     0.477074      56.9761 
0.00281650      1.35085      64.5731 
0.000770109     0.335261      72.6460 
0.000748120     0.532541      55.7131 
0.000750917      1.11427      68.9625 
0.00102096     0.693397      56.7683 
0.000945700     0.950158      59.6568 
0.00106285     0.310483      75.0686 
0.00223445     0.905539      59.4703 
0.00101403      1.10725      69.9285 
0.00122648      1.10454      58.3245 
0.000348389     0.648999      56.3099 
0.000345444     0.354401      73.6105 
0.00109173     0.488262      55.0080 
0.00710552     0.728011      74.0546 
0.00289309     0.329848      75.9638 
0.00146969      1.12606      70.2777 
0.000298101     0.516140      54.4623 
0.000797047     0.843801      58.5704 
0.000565171     0.676757      55.8403 
0.00191658      1.37753      64.1790 
0.000814585     0.472017      53.6156 
0.00175642      1.13701      50.7106 
0.000778078      1.14490      70.6155 
0.00185042      1.12161      58.8610 
0.00118094     0.721110      56.3099 
-0.00886944     0.121655     -170.538 
0.000719759     0.456070      52.1250 
0.000948069     0.305941      78.6901 
0.00254327      1.16379      70.9423 
0.000239921      1.36894      64.9325 
-0.00657400     0.128062     -38.6598 
0.000463050     0.782304      57.5288 
0.00483096      1.18271      71.2587 
0.000974486     0.708802      73.6105 
0.00213257     0.286356      77.9052 
0.000629114     0.412311      50.9061 
0.00322950      1.61245      60.2551 
0.00287148     0.765506      56.7251 
0.000985988      1.12161      50.0636 
0.00705379      1.20167      71.5650 
0.00500218     0.152315     -113.199 
0.000576271      1.14909      58.5232 
0.000857713      1.39556      64.5367 
0.000379945     0.396989      49.0856 
0.00113999      1.16619      59.0362 
0.000354162     0.382099      47.1211 
0.000652568      1.10635      49.3987 
0.000792718     0.266833      77.0054 
0.000331531     0.367696      45.0000 
0.000157882     0.353836      42.7094 
0.000721664      1.19365      58.7070 
0.000592640     0.184391      77.4712 
-0.00212176      1.60112      64.0751 
0.00171876     0.286356      24.7751 
0.000974904     0.704557      55.4077 
0.000693537      1.41365      64.8852 
-0.00146408     0.920217      47.6425 
0.000826274      1.09124      48.7153 
0.000667563     0.810432      74.2488 
0.000143312     0.689638      73.1416 
0.000535846     0.247386      75.9638 
0.000264622      1.02215      59.4208 
0.00133625      1.46779      70.0836 
0.000135474      1.04957      59.0362 
0.000135862     0.651460      72.1213 
0.000741703     0.660303      54.8658 
0.000130754     0.632456      71.5650 
0.000250259     0.145602      74.0546 
0.000599923      1.00499      58.8407 
0.000841865      1.07629      48.0128 
0.000478817     0.613514      70.9744 
0.000366792      1.43178      65.2249 
0.000470013     0.829699      74.6237 
0.000124783     0.228035      74.7449 
0.000245135      1.22115      58.3925 
0.000233336      1.42225      64.1556 
-0.000115395     0.609590      41.0091 
0.000227578      1.24868      58.0919 
0.000227280     0.189737      71.5651 
0.000112621     0.588218      54.6888 
0.000110548      1.06151      47.2906 
0.00126080     0.144222     -123.690 
0.000429413      1.14018      68.3852 
0.00117237     0.360555      33.6901 
0.000405649      1.13719      66.1398 
0.000385093      1.15169      69.6769 
0.000371913     0.172047     -125.538 
0.000366612      1.14543      65.2249 
0.00238858     0.372022      36.2538 
 0.0107103     0.184391     -130.601 
0.000342110      1.13596      63.8861 
0.000903839      1.14490      62.9873 
-0.00686018      1.61901      62.8019 
-0.000284208     0.715542      63.4349 
-0.00703279     0.688767      64.1790 
0.00118886      1.15412      62.1027 
-0.000244451     0.947629      82.7250 
0.00110346     0.384187      38.6598 
0.00415011     0.533667      77.0054 
-0.00434822     0.927793      82.5686 
0.000758040      1.13649      61.6310 
-0.00782118      1.30430      54.3602 
0.000725988     0.425206      41.1859 
0.000169823      1.11893      61.1443 
0.000617497     0.438634      43.1524 
0.000471026      1.09179      61.5571 
0.000720839    0.0632456     -108.435 
0.000802785      1.07424      61.0490 
0.000997081     0.480833      45.0000 
0.000118178      1.05679      60.5241 
-0.00107614     0.907965      82.4054 
0.000438073      1.02956      60.9454 
0.000216351     0.566392      47.8624 
0.000211443      1.22801      59.6764 
0.00111545     0.538145      48.0128 
0.000472441      1.01213      60.3955 
0.000280586      1.27264      59.8084 
0.000746710    0.0199999     -90.0000 
0.000335264      1.25539      59.3493 
0.000682638     0.596657      76.4296 
0.000168654     0.994786      59.8265 
8.43847e-05     0.624820      50.1944 
-0.00179104     0.113137      135.000 
-0.000524675     0.888144      82.2348 
-0.000859375     0.152315      23.1986 
0.000226480      1.30000      59.4898 
0.000533328      1.28281      59.0362 
0.000501661     0.509902      48.1798 
-0.000502121     0.868332      82.0565 
0.000686170    0.0632457      71.5650 
-0.000614001      1.30000      67.3801 
0.000245869     0.640312      75.5297 
0.000120718      1.32740      59.1843 
0.000470306      1.59512      59.8987 
0.000293288      1.50479      66.5014 
-0.000116627     0.360555      19.4400 
-5.84253e-05      1.28950      66.2180 
5.86439e-05      1.31027      58.7363 
-0.000769527     0.651153      79.3803 
-0.000401988     0.169706      45.0000 
-0.000408823     0.670820      79.6952 
-0.00110812     0.156205      39.8056 
-0.00266663     0.967471      82.8750 
-0.00255108     0.990354      43.3634 
-0.000556732     0.156205      50.1944 
-0.000641485     0.404475      81.4692 
-0.000320485     0.631506      79.0459 
-8.41590e-05     0.141421      45.0000 
-0.000540474     0.144222      33.6901 
-7.47061e-05     0.128063      38.6598 
-0.00314666      2.42207      2.36625 
0.00125068      4.38018      52.6069 
-0.00198507      2.57690      38.3820 
0.00162608      2.36415      119.384 
0.00211543      4.39236      52.3996 
0.00196919      3.06111      108.672 
-0.00106126      2.78582     -29.6939 
0.000705701      2.22225      2.57915 
-0.000977237      2.58496     -3.54868 
-0.000967531      3.26098     -1.40575 
0.00146290      2.20082      1.56222 
0.00120668      2.38160      119.148 
-0.00178948      2.39366      80.3803 
0.000661870      2.03823      42.6141 
0.000337721      4.13879      55.2348 
-0.000323407     0.806226     -66.6148 
-0.000313670      2.56632     -4.02199 
0.000312736      3.44285      87.6695 
0.000860228      4.16663      55.1657 
0.000863926      3.48092     -1.31691 
-0.000589227      1.33417     -156.125 
-0.000557690     0.787909     -66.0375 
0.000576852      3.19725      43.4792 
-0.000298365      2.40865      125.538 
-0.000835282      2.79578     -30.0499 
0.000579721      2.08010      43.0519 
-0.000559182      1.27562      138.814 
-0.000549735      3.96691      39.0658 
-0.000278122      2.44205      2.34688 
-0.000275898      1.02859     -153.435 
-0.000276584      2.39240      125.816 
-0.000535657      2.12509     -35.0362 
0.000268293      2.09380      43.4518 
0.000517891     0.684690      173.290 
-0.000260201      1.32620     -156.915 
0.000259507      3.42210      87.9904 
-0.000258977      2.38805      126.486 
-0.000254268      2.30868      58.0998 
0.000252905      1.51380     -74.6785 
-0.000252645      3.97955      39.2894 

select Q, 1, 8
! Flux (Jy) Radius (mas)  Theta (deg)  Major FWHM (mas)  Axial ratio   Phi (deg) T \
! Freq (Hz)     SpecIndex
 0.0153631      1.19080      60.8519 
0.00541132      1.18119      61.6992 
-0.0135421     0.967471      82.8750 
-0.00484376    0.0894427      116.565 
 0.0187953     0.609590      41.0091 
-0.00144074    0.0565686     -44.9999 
-0.00128250    0.0721110     -33.6900 
0.00188042      1.08849      69.5672 
-0.00219178     0.107703     -21.8014 
0.00260496      1.10725      69.9285 
-0.00243647     0.286356      24.7751 
-0.00289202     0.620323      69.2277 
-0.00597672     0.268328      26.5650 
-0.00347877      1.44222      56.3099 
-0.00133578    0.0848528     -45.0000 
0.00244071      1.12606      70.2777 
-0.0113255      1.46779      70.0836 
0.00443603      1.17337      60.3763 
-0.00148814     0.100000      126.870 
-0.00136870     0.639062      69.8637 
-0.00181144    0.0894427     -63.4349 
-0.00125643     0.613515      70.9744 
0.00269475      1.14490      70.6155 
-0.00185727     0.840238      51.7662 
0.00242577      1.60112      64.0751 
-0.000602600     0.107703     -68.1986 
-0.00769619      1.30430      54.3602 
-0.000286221     0.141421      98.1301 
-0.000545362     0.121655     -80.5377 
-0.00273419     0.824621      50.9061 
-0.00130058     0.161245      97.1250 
-0.00311885     0.140000     -90.0000 
-0.000715582     0.657875      70.4633 
0.00268902      1.59248      64.7223 
0.00233320      1.16379      70.9423 
0.000664407      1.28156      67.0362 
0.000791096      1.15603      59.8863 
0.00325325      1.03247      45.7848 
-0.000416130     0.676757      71.0296 
-0.000548512     0.695701      71.5650 
0.00149910      1.04690      46.5482 
0.00117616      1.30000      67.3801 
-0.00117618      1.16619      59.0362 
-0.000653750     0.868332      51.5463 
6.62279e-05      1.13877      59.3814 
-0.00247286      1.57785      59.5345 
-0.000317611     0.714703      72.0721 
-0.000294927     0.180000      90.0000 
0.00137189      1.18929      70.3462 
-0.000147246     0.733758      72.5528 
-0.00514063      1.19883      62.1524 
-0.00388133      1.20830      61.3139 
0.00776733      1.17184      62.5603 
 0.0106535     0.973242      80.5377 
-0.00271395      1.10073      65.2976 
-0.00396784      1.21803      60.4885 
-0.00304515      1.09252      66.2505 
-0.000464317      1.11893      65.7256 
-0.00284729      1.11086      66.6660 
-0.00638322     0.594643      42.2737 
-0.00760166     0.990354      43.3634 
-0.000325924      1.22801      59.6764 
-0.00183798     0.428019      37.4054 
9.09159e-05     0.169706     -135.000 
-0.00150125      1.20067      60.0184 
-0.00236767      1.10309      67.6199 
-0.000539849      1.21078      59.1986 
-0.00244743     0.156205     -140.194 
-0.00235024      1.12161      68.0089 
-0.00196780      1.18339      59.5345 
0.00553886     0.128062     -38.6598 
-0.00139010     0.416173      35.2176 
0.00228329     0.976729      79.3803 
-0.000354840      1.14018      68.3852 
-0.00196330     0.622897      42.3974 
-0.00155934      1.15169      69.6769 
-0.00352980     0.360555      19.4400 
4.76330e-05      1.17047      70.0169 
0.00119197      1.47567      57.1715 
-0.000783226      1.20814      70.6652 
0.00116574      1.45890      56.7456 
-0.000524701     0.184391     -130.601 
0.00371542     0.404475      81.4692 
-0.000424222     0.116619     -149.036 
0.00157902      1.04995      49.6355 
-9.28174e-05     0.107703     -158.199 
-0.000531239     0.975910      44.1697 
0.00125174     0.181108      96.3402 
-9.30298e-05     0.924770      68.4287 
-0.000262995     0.917606      69.5901 
-0.000320348     0.891964      70.3462 
0.00340777      1.01980      48.1798 
0.00257427      1.47078      67.6199 
0.000418963      1.48930      67.9128 
-0.000894483    0.0848528      135.000 
-0.00111648      1.15966      57.6804 
-8.90738e-05     0.550273      70.9065 
-0.000235461    0.0721111      146.310 
-7.64366e-05      1.18727      57.3808 
0.000548738      2.20871      125.417 
0.00106153      1.20599      174.289 
0.00227344      1.69198     -147.061 
-0.00102468      1.58405     -127.304 
0.00306850      2.22036      125.838 
-0.000946776      2.53180      44.0398 
-0.00280108      1.07629      131.987 
0.00176322      1.20416      175.236 
-0.00161194      3.22118      24.9739 
-0.00211807      2.54621      43.7270 
-0.00233656      1.56818     -127.747 
0.00202727      1.18609      174.193 
-0.000398679      2.01296      25.2920 
-0.000765725      2.51794      43.7127 
0.00102903      4.19609      52.7478 
0.000384850      1.38058      1.66028 
-0.00134310      1.74264      80.7539 
-0.00101004      2.02158      25.8045 
0.000366047      1.41039      108.178 
0.000363310      4.18402      52.9658 
0.000360528      2.45406      19.0256 
0.000357376      1.38130      2.48955 
0.00100260      3.18628      3.59877 
0.000991785      2.80492      74.2791 
-0.00178086      1.03228      35.5377 
-0.000643800      1.71814     -12.0948 
0.000658237      2.23213      126.254 
0.000338490      1.68119     -147.633 
0.000645532      1.26270     -150.593 
0.000945452      2.71662      30.5297 
0.000641803      1.40129      2.45403 
0.000646811      1.41676      108.947 
0.000623909      4.31356      38.4109 
-0.000321345      2.03961      25.5600 
0.000319697      3.68722     -18.3367 
-0.000615769      2.05154     -29.8142 
0.000314500      1.35366      12.8043 
-0.000306666      3.25859      58.5538 
0.000305120      1.18423      175.156 
0.000304396      3.54565      35.1244 
0.000549063      2.46065      19.4659 
0.000298396      2.28806      126.469 
-0.00615755     0.970155      81.7029 
0.000455583      1.14543      65.2249 
0.000430138      1.14769      67.4569 
0.00116385      1.16619      67.8337 
0.00360295      1.01823      45.0000 
0.00138936      1.15879      68.7495 
0.00249449      1.17745      69.1022 
0.00205340      1.18338      59.5345 
-0.00230914     0.286356      77.9052 
0.000681344     0.966023      62.9044 
0.000998460      1.19616      69.4440 
-0.00302960     0.896437      51.3402 
0.000758030     0.948262      62.3540 
0.000763544     0.930591      61.7826 
-0.00237789     0.145602     -74.0546 
-0.000632590     0.329848      75.9638 
-0.000168030     0.791202      73.8557 
-0.000156157     0.575847      69.6769 
0.000155374     0.975295      61.8584 
-0.000153128     0.796994      72.4744 
0.00186091      1.19365      58.7070 
-0.000976893     0.777946      72.0309 
-0.00133504     0.354401      73.6105 
0.000378270     0.957706      61.2940 
0.000736493      1.21491      69.7751 
-0.000795062      1.59512      59.8987 
0.000448750     0.913017      61.1892 
-0.000208204     0.924554      51.1466 
0.000102129      1.22115      58.3925 
-0.000528284      1.07424      65.8209 
-0.00197849      1.08462      67.2176 
-0.00647483     0.990353      43.3634 
-0.000569339      1.11427      68.9625 
-0.00163952      1.13296      69.3256 
-0.000488091     0.144222     -146.310 
-0.000661594     0.128062     -141.340 
-0.000625654     0.404969      32.9052 
0.000127576     0.672309      59.6209 
0.000350403     0.655134      58.7363 
-0.000117456     0.172047     -125.538 
-0.000873595      1.17388      66.9296 
-0.000267136      1.15551      66.5410 
0.00285292      2.54786     -94.5022 
-0.00103438      2.57690     -51.6180 
-0.00127749      2.58031     -52.2419 
-0.000363683      1.71977      171.304 
-0.00128954      1.82571     -155.400 
0.00100187      2.29452      165.358 
-0.00206878      1.06075      134.236 
0.000866207      2.35372     -65.3949 
0.00124123      2.19244      125.720 
-0.00201629      2.95513      140.492 
0.000620508      2.48620      19.7468 
0.000620148      2.37192     -65.5960 
-0.00143942      2.79063     -116.381 
0.00137541      2.68924      30.3791 
0.000830775      2.28954      165.842 
0.000553833      2.85671     -146.421 
-0.00107451      2.12009     -117.532 
-0.000539855      2.05718      26.5651 
0.000541805      2.20227     -166.342 
0.000546542      2.46739      19.9037 
-0.000280793      2.59260     -51.8924 
0.00103449      2.20227     -145.733 
0.000532442      1.99449      96.9112 
-0.000270502      2.94245      140.793 
0.000518662      2.20418      126.142 
0.000257986      2.36863      56.7125 
0.000254017      3.11133      50.4774 
-0.000253630      1.73954      81.4041 
-0.000250110      2.76384     -116.194 
-0.000247262      1.62542     -71.3421 
0.000247273      2.08471     -49.2795 
-0.000246456      2.93973     -59.7716 

select U, 1, 8
! Flux (Jy) Radius (mas)  Theta (deg)  Major FWHM (mas)  Axial ratio   Phi (deg) T \
! Freq (Hz)     SpecIndex
-0.00214309     0.975910      44.1697 
0.00360744     0.820975      55.9228 
0.00293949     0.169706      45.0000 
0.00412691     0.793221      56.3099 
0.000743588     0.989949      45.0000 
0.00124529     0.269072      48.0128 
-0.00118702      1.00419      44.1931 
0.000619852     0.141421      45.0000 
0.00160220     0.113137      45.0000 
0.00534035     0.776660      55.4915 
0.00312606     0.297321      47.7263 
-0.00414106     0.368782      77.4712 
-0.00439120      1.01823      45.0000 
-0.00380126      1.50944      57.9946 
0.000901108    0.0848528      45.0000 
-0.00953465     0.128062     -38.6598 
0.00425685    0.0721110      33.6901 
-0.000359563     0.392938      75.2564 
-0.00425530     0.121655     -170.538 
-0.00323070     0.349285      76.7595 
0.00128745     0.100000      36.8699 
-0.00286751      1.03247      45.7848 
0.000317958     0.760263      54.6375 
-0.00188027      1.52643      58.3925 
0.00139195     0.748866      55.8855 
0.00130651     0.254558      45.0000 
0.00259649    0.0632456      18.4349 
0.000474985     0.732393      55.0080 
-0.000469711     0.329848      75.9638 
0.000461079    0.0400000      0.00000 
-0.000231432      1.04690      46.5482 
-0.00489400     0.865332      56.3099 
-0.00391854     0.323110      21.8014 
0.000547351      1.00419      45.8069 
0.00193493      1.17201      53.3257 
0.00333596      1.64730      60.9454 
-0.000237334     0.113137     -135.000 
-0.000879133     0.481664      48.3665 
0.00177732      1.18811      53.9017 
-0.00123227     0.128062     -141.340 
-0.000751452      1.12925      67.0679 
-0.000550480     0.524976      49.6355 
-0.00140347     0.540370      51.0090 
-0.00166928     0.882043      57.0306 
0.000178380     0.557853      75.4655 
-0.00168853     0.144222     -146.310 
0.000481336     0.582409      74.0546 
0.000166234     0.538516      74.9315 
0.00106812      1.44222      56.3099 
0.000567239     0.601664      74.5778 
-0.000577843      1.12606      70.2777 
-0.000679772     0.341760      20.5560 
0.000152125     0.519230      74.3578 
0.000144783     0.480833      73.0725 
-0.000143180      1.11086      66.6660 
0.000138627     0.417612      73.3008 
0.000371231     0.398497      72.4744 
-0.000370435     0.898888      57.7244 
0.000595319      1.48189      68.6294 
0.000125107     0.620967      75.0686 
-0.000234670      1.11893      65.7256 
0.000351994     0.645601      73.8108 
0.000111318     0.379473      71.5651 
0.00330140      1.62825      62.1759 
-0.00230778     0.360555      19.4400 
-0.000903845     0.967471      82.8750 
-0.000606430      1.20167      71.5651 
0.000552982     0.553173      77.4712 
0.00151166      1.12161      50.0636 
0.000932455      1.61901      62.8019 
0.000844258     0.572713      77.9052 
0.000186049     0.404475      81.4692 
-0.000385740     0.826801      57.8477 
0.000227316      1.60997      63.4349 
0.000149764      1.10635      49.3987 
-0.00339970      1.31469      13.1906 
-0.00190180      3.25318      134.004 
0.00136263      2.09609     -48.0941 
-0.000473348      3.23883      134.249 
-0.000876531      3.25281      134.502 
0.00223593      1.52315      103.671 
-0.00255054      1.67738      129.193 
-0.00224852      1.84835     -76.8660 
-0.000434238      2.47370      6.03325 
0.00245251      2.88555      136.123 
0.00220601      2.52634     -156.682 
-0.00179153      1.64146      46.9749 
0.00142143      1.40014     -68.1986 
0.00104185      2.08125     -47.7263 
-0.000367034      2.49359      5.98495 
-0.000702767      2.36381     -47.4002 
0.000689470      2.58936     -113.199 
-0.000357353      2.30209      150.317 
0.000671876      1.14612      119.249 
0.000663867      2.52127     -91.8183 
-0.000959670      2.31206      149.886 
0.000937216      2.10238      62.2161 
-0.000323576      3.26497     -130.030 
-0.000613686      3.38024     -135.719 
-0.000613921      2.34828     -46.3804 
-0.000610859      1.10635     -40.6013 
0.000605741      2.07200      53.2407 
0.000311063      1.52801      104.400 
-0.000310792      2.39082      70.9588 
0.000307428      1.15412      117.897 
0.000303747      2.54055      33.4399 
-0.000303363      1.49265     -107.949 
0.000302845      2.60500      104.676 
-0.000300476      3.29314     -130.073 
-0.000295420      2.39742      70.5069 
0.000293806      2.55265     -156.448 
0.000294701      1.82165     -171.158 
0.000291469      2.52198     -92.2724 
