! Center RA: 04 18 21.27724,  Dec: +38 01 35.80018 (2000.0)
! Tentative model.
! Flux (Jy) Radius (mas)  Theta (deg)  Major FWHM (mas)  Axial ratio   Phi (deg) T \
! Freq (Hz)     SpecIndex
  0.632162    0.0200000     -90.0000 
  0.213759    0.0282843     -45.0000 
 0.0398985    0.0200000      0.00000 
 0.0879701     0.420476      64.6538 
 0.0171089    0.0400000     -90.0000 
 0.0168663     0.100000      53.1301 
  0.162193    0.0632456     -108.435 
 0.0156875     0.113137      45.0000 
 0.0643597     0.128062      51.3402 
 0.0123964      1.13649      61.6310 
 0.0591589    0.0824621     -104.036 
 0.0118263      1.15412      62.1027 
 0.0312372     0.402492      63.4349 
 0.0251037      1.06471      61.9908 
  0.123723      1.19883      62.1524 
 0.0208174      1.03769      62.4472 
 0.0441383     0.144222      56.3099 
 0.0280531     0.375766      64.7989 
 0.0513203      1.01074      62.9279 
 0.0275913     0.172047      54.4623 
 0.0480701     0.277849      59.7436 
 0.0150813     0.429418      62.2415 
 0.0211370     0.638122      57.8043 
 0.0254419     0.456508      61.1892 
 0.0246437      1.02000      61.9275 
0.00692693     0.260768      57.5288 
 0.0240021     0.116619      59.0362 
0.00665934     0.992975      62.4027 
 0.0305862    0.0894427      63.4349 
 0.0104979     0.483735      60.2551 
 0.0298208     0.655134      58.7363 
0.00564372     0.913017      61.1892 
 0.0239170      1.09179      61.5571 
0.00542777     0.411825      60.9454 
 0.0105089      1.21655      62.5924 
 0.0184625     0.895545      60.5725 
0.00919051      1.23434      63.0198 
 0.0149893     0.466476      59.0362 
 0.0272998     0.101980     -101.310 
 0.0117843      1.25220      63.4349 
 0.0101431     0.107703      68.1986 
 0.0254882      1.10145      60.6422 
0.00376933     0.439090      59.9314 
0.00375405     0.905539      59.4703 
 0.0128487     0.305287      58.3925 
 0.0278124     0.627694      59.3493 
0.00976440      1.27012      63.8384 
 0.0145010     0.888369      58.8150 
0.00320905     0.493964      58.2405 
 0.0211761    0.0824621      75.9638 
0.00286157      1.27906      63.0343 
0.00500134     0.477074      56.9761 
0.00272190      1.28810      64.2307 
 0.0107352     0.871321      58.1340 
 0.0150896      1.29692      63.4349 
0.00253045     0.449444      57.7244 
 0.0375630     0.107703     -111.801 
0.00236931     0.349857      59.0362 
0.00230883      1.11140      59.7436 
0.00598168    0.0600000      90.0000 
0.00212274     0.460435      55.6197 
0.00209115      1.12872      60.2551 
0.00378379     0.432666      56.3099 
0.00358664      1.12161      58.8610 
0.00642304      1.31484      63.8247 
0.00179062      1.11893      61.1443 
0.00273590     0.644981      60.2551 
0.00170326     0.444072      54.1623 
0.00165747      1.08849      69.5672 
0.00186407     0.600333      60.0184 
0.00160263      1.13208      57.9946 
0.00157909     0.472017      53.6156 
0.00442058      1.11946      71.2414 
0.00153926     0.332866      57.2648 
0.00153144      1.14280      57.1443 
0.00152413     0.617738      60.9454 
0.00412645     0.101980      78.6901 
0.00145824     0.416173      54.7824 
0.00823586      1.30614      64.6121 
0.00145077      1.15378      56.3099 
0.00569533      1.13719      55.7510 
0.00923366     0.635295      61.8214 
0.00267706     0.456070      52.1250 
0.00392697    0.0632456      108.435 
0.00380224      1.13225      72.5252 
0.00239555     0.468615      50.1944 
0.00235258      1.17644      54.6888 
0.00121964     0.316228      55.3048 
0.00517224      1.14856      54.9262 
0.00204002      1.12641      73.4956 
0.00893031      1.14560      73.7798 
0.00110753     0.481664      48.3665 
0.00109077    0.0800000      90.0000 
0.00105710     0.360555      56.3099 
0.00103876     0.984073      52.4314 
0.00103969     0.145602      74.0546 
0.00852256      3.18025      66.6595 
0.00196549      1.18811      53.9017 
0.00382792     0.495177      46.6366 
0.00236932    0.0721110      123.690 
0.000967933     0.996393      51.5198 
0.00329458    0.0824621      104.036 
0.00674695      2.56312      67.0362 
0.000892398      1.00896      50.6307 
0.00171323      1.20000      53.1301 
0.000875151     0.344093      54.4623 
0.00245447      1.29769      65.4099 
0.00574691     0.509117      45.0000 
0.00236643      1.14018      74.7449 
0.00780354     0.116619     -120.964 
0.00153565      1.02176      49.7636 
0.000786517     0.121655      80.5377 
0.000778718      1.00658      49.0283 
0.000781841     0.986712      72.2996 
0.00219086      1.21211      52.3738 
0.00923408    0.0848528      135.000 
0.00584685      1.10941      56.0235 
0.000738007     0.356090      51.8428 
0.00484026      1.01980      48.1798 
0.000726338     0.980816      73.4127 
0.00191932     0.164924      75.9638 
 0.0112375      1.67260      63.7413 
0.00200486     0.975295      74.5388 
0.000659849      3.18823      66.3295 
0.00601009      1.22442      51.6325 
0.00662891      1.16482      74.0546 
0.000632377      3.21459      66.1461 
0.000627660     0.340588      49.7636 
0.000625168      3.03592      66.3058 
0.000620351      1.25539      67.5206 
0.000618475      2.84007      70.6719 
0.00540439      1.15948      75.0049 
0.00322948      3.22273      65.8209 
0.00437907     0.509902      41.8202 
0.00289368     0.970155      75.6773 
0.00113682      3.02576      65.8068 
0.00113021      2.82121      70.5374 
0.00150610      2.55539      67.4491 
0.00251875      3.01582      65.3045 
0.00379343      3.23098      65.4973 
0.000520709      2.53693      67.2759 
0.00161244     0.950789      75.3791 
0.000990583      2.81460      70.9213 
0.000963196     0.733757      72.5528 
0.00198130     0.610574      58.3925 
0.00219893      1.26649      68.7026 
0.00478205      2.52927      67.6938 
0.000728799     0.495177      43.3634 
0.00323496      1.23693      50.9061 
0.00403818     0.965402      76.8274 
0.00294009      1.01863      46.5911 
0.000927090     0.161245      82.8750 
0.000476551     0.353836      47.2906 
0.00189739     0.945939      76.5514 
0.000452549      3.13088      67.8588 
0.000854935      2.80813      71.3070 
0.00202086      3.01470      64.4549 
0.000912825     0.747262      74.4759 
0.00322815      3.61386      67.5509 
0.000729250    0.0894427      116.565 
0.000399058     0.496790      40.1009 
0.000742247      3.10483      68.0615 
0.000389545     0.353836      42.7094 
0.000738815      2.82708      71.4369 
0.00105074      1.09289      55.4375 
0.00100179      1.01823      45.0000 
-0.00621749      1.91050      59.1391 
0.000418579     0.766551      74.8760 
0.000951278     0.593633      57.3808 
0.000679768     0.160000      90.0000 
0.000364776      2.73854      71.6974 
0.00196408     0.512250      38.6598 
-0.00194264      3.47701      66.9745 
0.00448878      3.14941      67.9959 
0.00103393      3.00540      63.9465 
-0.00215473      3.73149      71.5651 
0.000334323      1.01863      43.4089 
-0.00408557      3.48488      66.6719 
0.000625384      2.71956      71.5651 
0.000321394     0.368782      40.6013 
0.000629018     0.961041      77.9885 
0.00227299      3.01423      63.6050 
0.000886827      2.59237      67.7882 
0.00113523      3.22967      64.7045 
0.000313276      2.83979      71.9479 
0.000692714     0.761577      76.3287 
-0.000307839      2.39140      75.9638 
-0.00188683      3.68402      59.6764 
0.00148815     0.420000      90.0000 
0.000298351     0.500000      36.8699 
-0.000580502      2.39633      75.4998 
0.000293871      1.66373      62.8189 
0.000552305     0.180000      90.0000 
0.000289338      2.73233      72.0956 
0.000725077      1.03247      45.7848 
0.000286125      1.62012      61.2202 
0.000730933     0.384187      38.6598 
0.00303927     0.516140      35.5377 
0.000797285      2.71330      71.9657 
0.000531514      1.00499      42.5805 
0.00138492      2.88278      60.9454 
0.000274284      2.85881      72.0721 
-0.00385489      2.38210      74.9136 
0.000772673      1.61245      60.2551 
0.00250095      1.01980      41.8202 
0.000499320     0.781025      76.6755 
0.000496806      3.17547      67.7965 
0.000731126      2.87179      72.5746 
0.00217017      1.90924      67.1955 
0.000472248      2.46966      65.0952 
0.00256769      3.60627      67.8446 
0.000445744      1.24788      68.3691 
0.000483311      2.70718      72.3682 
0.00115489     0.440000      90.0000 
0.000696308      3.02318      63.2654 
0.00153145      2.60346      68.3621 
-0.000475828      2.19572      69.7494 
0.00100780      1.09836      56.8887 
0.000445188      3.08869      60.9454 
0.000898686      1.68190      64.6538 
0.000235137      2.47814      64.6758 
0.000620953     0.583095      59.0362 
0.000637380     0.181108      96.3402 
0.000969903      2.72029      72.8973 
-0.00328777      2.21450      69.9285 
0.000229859      2.58488      68.1986 
0.00224639      2.70185      75.8609 
0.00111842      3.09845      60.6221 
0.000789042      2.46876      64.0577 
0.000807465      1.59512      59.8987 
0.000594316      2.46008      64.4766 
0.00111297      3.23827      64.3845 
0.000410026      2.86587      72.9561 
0.000788958      3.02338      64.1130 
0.000293458      2.57992      60.2551 
0.00146724      3.27634      72.2287 
0.000208178      2.54032      68.2824 
0.000372570      2.56258      60.0333 
0.00129443      1.69163      65.5560 
0.000388892     0.566039      57.9946 
-0.00210757      3.49543      67.1027 
-0.000566375      3.06203      56.7251 
0.00192349      2.59615      68.7723 
0.000947528      2.57263      59.6474 
-0.000359644      3.55128      64.3008 
-0.00140426      3.14350      75.2564 
0.000191297      2.53298      68.7026 
0.000373359      1.90158      67.7510 
0.00103896      3.74817      64.3921 
0.000187409      2.61480      68.9310 
0.000533641      2.86007      73.3391 
0.000684373      1.60524      59.2811 
0.000346497      1.24065      69.2277 
0.000337633     0.538516      58.6713 
0.000178504      3.24697      64.0663 
0.000177647      1.89410      68.3109 
0.000337025     0.200998      95.7106 
0.000834140      2.76268      57.1152 
-0.00100585      3.07877      56.9293 
0.000174684      2.89254      60.5991 
0.000174621      2.52579      69.1254 
0.000173329      1.88680      68.8753 
0.000502890      3.32006      61.5824 
0.000659750      2.45080      63.8532 
-0.000822178      2.36812      74.3205 
0.000163481     0.555698      59.7436 
0.000163288      2.50503      70.4077 
-0.000482095      2.20273      69.2613 
0.000322623      1.87968      69.4440 
0.000162431      1.70176      66.4477 
0.000161930      2.85440      73.7237 
0.000158443      1.58808      58.9125 
0.000158226      1.69387      67.0679 
0.000158048     0.957079      79.1597 
0.000157982     0.344093      35.5377 
0.000156937     0.532541      34.2869 
0.000157430      2.49840      70.8398 
0.00578089     0.100000     -90.0000 
0.000447964     0.689638      73.1416 
0.000427451     0.987927      68.6294 
0.000796066     0.695701      71.5650 
0.00143787     0.907083      75.9638 
0.000357666      1.00319      66.5014 
0.000670165     0.116619      30.9638 
0.000336441     0.714703      72.0721 
0.000313322      1.02956      65.9245 
0.000302691     0.428019      37.4054 
0.000297970     0.708802      73.6105 
0.00124948     0.902441      77.1957 
0.000545185     0.935094      48.4682 
0.000276813     0.107703      21.8014 
0.000277081      1.03788      64.9164 
0.000696645     0.432666      33.6901 
0.000249432     0.141421     -135.000 
0.000466352     0.948472      47.5638 
0.000647116      1.04785      66.3706 
0.000450642     0.100000      36.8699 
0.00121527      2.56031      61.0323 
0.000234301     0.107703     -68.1986 
0.000990920      1.23434      49.6001 
0.000646807      2.87513      60.4034 
0.000330310     0.703420      75.1735 
0.000423042     0.156205     -140.194 
0.00146532     0.640000      90.0000 
0.000958371     0.116619     -59.0362 
0.00201942      3.25779      61.3895 
0.000187581     0.975910      45.8303 
0.000365894     0.172047     -144.462 
0.000926535     0.449444      32.2756 
0.000491590      1.06621      66.8014 
0.000320996      2.54283      60.8141 
0.00194551     0.188680     -147.995 
0.000163121     0.989949      45.0000 
0.000162738      3.55421      68.1986 
0.00111242      1.70880      73.6861 
0.000538374     0.921954      77.4712 
0.000894561      1.24740      48.9005 
0.00205797      3.56545      68.6164 
0.00171714     0.660000      90.0000 
0.000149518      2.55265      60.4222 
0.000142500      2.52539      60.5928 
0.000142144    0.0848528      45.0000 
0.000366641      1.39556      64.5367 
0.000883893     0.128062     -51.3402 
0.000591463      2.53527      60.1991 
0.00276474     0.188680      147.995 
0.000131245      2.81311      60.1541 
0.000418414      1.05849      67.7965 
0.000820043     0.282843      8.13010 
0.000121711      2.80321      60.5086 
0.000122017      1.03479      41.0818 
0.00107423      3.27536      61.5571 
0.000439880      2.40882      60.6682 
0.000224503      3.55820      68.9162 
0.000219145      1.70329      74.3318 
0.000215143      1.04995      40.3645 
0.000379785      3.27768      73.3342 
0.000283420      1.87040      65.3532 
0.000277738      2.77597      60.6647 
0.000287337      1.71732      75.1545 
0.000318264     0.898221      78.4399 
0.000856625     0.141421     -45.0000 
0.000991143      1.24579      47.6026 
0.000337203      1.06527      39.6678 
0.000169730      1.38708      65.2826 
0.000308802      2.39908      61.0846 
0.000274965      1.08462      67.2176 
0.000605701      1.71231      75.8014 
0.000157580      1.87883      64.7989 
0.000141147      1.23240      48.2892 
0.000348277      3.27200      73.6698 
0.000342258     0.466476      30.9638 
0.000194791      2.74875      60.8239 
0.000547412      2.18769      75.7097 
7.17289e-05      3.24992      60.9111 
7.04988e-05      1.36894      64.9325 
0.000310815      1.08074      38.9910 
0.000135282      1.88743      64.2495 
0.000135382      3.18025      60.2104 
0.000247822     0.156205     -39.8056 
0.000107326      2.58990      59.8710 
0.000637005      1.70751      76.4521 
-0.00112540     0.260000      67.3801 
0.000120548      1.89621      63.7052 
0.000744952      3.16291      60.0304 
-0.000490631      2.91239      66.9564 
0.000111787      1.36059      65.6955 
0.000113919      3.09458      69.5740 
0.000351525      3.28353      62.0302 
0.000106768      1.90515      63.1660 
-0.00100863      1.14438      84.9869 
0.000151664      3.26644      74.0064 
0.000106728     0.868332      51.5463 
0.000330476      3.10161      69.2277 
-0.000493084     0.268328      63.4349 
5.18357e-05     0.878635      78.1785 
0.000140608      1.09636      38.3333 
0.000230795      2.73905      61.1892 
-0.00152957     0.278568      68.9625 
0.000143565     0.880909      50.5275 
0.000139507      1.37884      66.0375 
0.000225081      3.57279      68.3177 
-0.000456685      3.76431      70.1209 
0.000132645      1.91426      62.6318 
4.93049e-05     0.859069      77.9052 
-0.000928838      2.92027      66.5953 
4.81010e-05     0.286356      12.0948 
4.62677e-05      3.15297      60.3453 
-0.000709722      3.01204      56.0989 
0.000204310      2.01445      60.8901 
0.000352119      2.20708      75.8378 
0.000128856     0.874757      79.4608 
4.45495e-05      2.71190      61.3558 
8.83303e-05     0.481664      41.6335 
8.38253e-05      3.26098      74.3442 
-4.29273e-05      2.37192      70.8012 
0.000159083      3.26588      61.8656 
4.17975e-05     0.742159      75.9638 
0.000188302      2.06708      61.6992 
-0.000855345      2.04362      69.9690 
0.000184179      3.13560      60.1645 
-4.12461e-05      2.37857      70.3462 
0.000269099      2.69436      61.1519 
7.74828e-05     0.896437      51.3402 
4.04457e-05      1.92354      62.1027 
0.000150052      2.60722      60.0916 
0.000184615      3.09011      68.7495 
7.59598e-05      3.25564      74.6831 
7.67680e-05     0.722772      75.5792 
0.000185154      1.72070      70.3014 
0.000147916     0.894427      79.6952 
0.000112063      1.72754      69.6769 
3.60571e-05      2.71190      75.0414 
3.53520e-05      2.62458      60.3093 
7.00177e-05      3.27420      62.3393 
-6.86068e-05      3.77831      60.8570 
6.90899e-05      2.67686      60.9454 
3.45021e-05      3.25042      75.0232 
0.000102719      1.71593      68.8187 
3.43549e-05     0.909065      50.3558 
6.84352e-05      1.71814      77.9052 
3.40681e-05      2.71713      74.6339 
3.37635e-05     0.891067      80.9605 
0.00161878     0.101980     -78.6901 
0.000416967      2.43877      59.4392 
0.000263913      1.99700      60.6110 
0.000198081     0.680000      90.0000 
0.000192027      1.45836      47.7792 
0.000160580      2.44900      59.0362 
-0.000181805     0.216333      56.3099 
-0.000141709     0.205913      60.9454 
3.51058e-05      3.08551      74.9729 
0.000247045      1.97960      60.3269 
0.000156716      3.06620      74.8760 
-0.00104342     0.188680      57.9946 
9.42713e-05      1.18929      42.2737 
0.000120449      3.19331      62.7930 
-0.000199926      2.91321      54.7824 
0.000112179      1.17593      41.5526 
0.000169657     0.620000      90.0000 
8.24942e-05      3.18478      62.3085 
-2.71393e-05      3.99890      62.2815 
-5.47679e-05     0.161245      60.2551 
2.67018e-05      2.45935      58.6367 
0.00128184     0.791202     -110.726 
0.000766179     0.809938     -110.225 
0.000439328     0.533667     -102.995 
0.000786359      3.70195      88.1424 
0.000541870      1.11803     -116.565 
-0.000188860      6.38000      136.397 
0.000679735     0.519230     -105.642 
-0.000178944      6.36622      136.528 
0.000750647      2.37697      30.8811 
-0.000316373      6.36553      136.273 
0.000762455      5.35649      131.367 
0.000472215      3.70265      87.8331 
0.000622480      2.73642      37.8750 
-0.000609816      2.19545     -173.199 
-0.000602513      1.76647      149.370 
-0.000605629      3.27915      10.8987 
-0.000441186      2.38663     -166.430 
-0.000315475      6.38075      136.651 
-0.000308928      2.63879     -104.036 
0.000583997      4.67611     -16.6523 
-0.000446986      3.22441      135.000 
0.000303970      1.13596     -116.114 
-0.000433659      4.47754     -57.5877 
-0.000432569      5.53610      137.782 
0.000285457     0.651153      132.510 
0.000281512      3.68022     -37.4927 
-0.000279293      3.91004      104.818 
-0.000279066      2.11244     -108.778 
0.000143573      3.47287      32.7749 
0.000277747     0.514198     -103.496 
0.000141602      6.17275     -127.761 
-0.000139744      2.64915     -94.7636 
0.000139460      3.80410      126.448 
-0.000139226      6.41090      137.149 
-0.000138749      2.64371     -104.457 
-0.000137168     0.493964     -148.241 
-0.000135553      5.68074      55.4707 
0.000135416      5.13256     -32.2657 
-0.000134584      5.56737      138.349 
0.000134577      3.50051      32.8729 
-0.000133951      2.68924      120.379 
0.000133582      1.27906      9.90418 
