select I, 1, 8
! Flux (Jy) Radius (mas)  Theta (deg)  Major FWHM (mas)  Axial ratio   Phi (deg) T \
! Freq (Hz)     SpecIndex
  0.632162    0.0200000     -90.0000 
  0.213759    0.0282843     -45.0000 
 0.0398985    0.0200000      0.00000 
 0.0879701     0.420476      64.6538 
 0.0171089    0.0400000     -90.0000 
 0.0168663     0.100000      53.1301 
  0.162193    0.0632456     -108.435 
 0.0156875     0.113137      45.0000 
 0.0643597     0.128062      51.3402 
 0.0123964      1.13649      61.6310 
 0.0591589    0.0824621     -104.036 
 0.0118263      1.15412      62.1027 
 0.0312372     0.402492      63.4349 
 0.0251037      1.06471      61.9908 
  0.123723      1.19883      62.1524 
 0.0208174      1.03769      62.4472 
 0.0441383     0.144222      56.3099 
 0.0280531     0.375766      64.7989 
 0.0513203      1.01074      62.9279 
 0.0275913     0.172047      54.4623 
 0.0480701     0.277849      59.7436 
 0.0150813     0.429418      62.2415 
 0.0211370     0.638122      57.8043 
 0.0254419     0.456508      61.1892 
 0.0246437      1.02000      61.9275 
0.00692693     0.260768      57.5288 
 0.0240021     0.116619      59.0362 
0.00665934     0.992975      62.4027 
 0.0305862    0.0894427      63.4349 
 0.0104979     0.483735      60.2551 
 0.0298208     0.655134      58.7363 
0.00564372     0.913017      61.1892 
 0.0239170      1.09179      61.5571 
0.00542777     0.411825      60.9454 
 0.0105089      1.21655      62.5924 
 0.0184625     0.895545      60.5725 
0.00919051      1.23434      63.0198 
 0.0149893     0.466476      59.0362 
 0.0272998     0.101980     -101.310 
 0.0117843      1.25220      63.4349 
 0.0101431     0.107703      68.1986 
 0.0254882      1.10145      60.6422 
0.00376933     0.439090      59.9314 
0.00375405     0.905539      59.4703 
 0.0128487     0.305287      58.3925 
 0.0278124     0.627694      59.3493 
0.00976440      1.27012      63.8384 
 0.0145010     0.888369      58.8150 
0.00320905     0.493964      58.2405 
 0.0211761    0.0824621      75.9638 
0.00286157      1.27906      63.0343 
0.00500134     0.477074      56.9761 
0.00272190      1.28810      64.2307 
 0.0107352     0.871321      58.1340 
 0.0150896      1.29692      63.4349 
0.00253045     0.449444      57.7244 
 0.0375630     0.107703     -111.801 
0.00236931     0.349857      59.0362 
0.00230883      1.11140      59.7436 
0.00598168    0.0600000      90.0000 
0.00212274     0.460435      55.6197 
0.00209115      1.12872      60.2551 
0.00378379     0.432666      56.3099 
0.00358664      1.12161      58.8610 
0.00642304      1.31484      63.8247 
0.00179062      1.11893      61.1443 
0.00273590     0.644981      60.2551 
0.00170326     0.444072      54.1623 
0.00165747      1.08849      69.5672 
0.00186407     0.600333      60.0184 
0.00160263      1.13208      57.9946 
0.00157909     0.472017      53.6156 
0.00442058      1.11946      71.2414 
0.00153926     0.332866      57.2648 
0.00153144      1.14280      57.1443 
0.00152413     0.617738      60.9454 
0.00412645     0.101980      78.6901 
0.00145824     0.416173      54.7824 
0.00823586      1.30614      64.6121 
0.00145077      1.15378      56.3099 
0.00569533      1.13719      55.7510 
0.00923366     0.635295      61.8214 
0.00267706     0.456070      52.1250 
0.00392697    0.0632456      108.435 
0.00380224      1.13225      72.5252 
0.00239555     0.468615      50.1944 
0.00235258      1.17644      54.6888 
0.00121964     0.316228      55.3048 
0.00517224      1.14856      54.9262 
0.00204002      1.12641      73.4956 
0.00893031      1.14560      73.7798 
0.00110753     0.481664      48.3665 
0.00109077    0.0800000      90.0000 
0.00105710     0.360555      56.3099 
0.00103876     0.984073      52.4314 
0.00103969     0.145602      74.0546 
0.00852256      3.18025      66.6595 
0.00196549      1.18811      53.9017 
0.00382792     0.495177      46.6366 
0.00236932    0.0721110      123.690 
0.000967933     0.996393      51.5198 
0.00329458    0.0824621      104.036 
0.00674695      2.56312      67.0362 
0.000892398      1.00896      50.6307 
0.00171323      1.20000      53.1301 
0.000875151     0.344093      54.4623 
0.00245447      1.29769      65.4099 
0.00574691     0.509117      45.0000 
0.00236643      1.14018      74.7449 
0.00780354     0.116619     -120.964 
0.00153565      1.02176      49.7636 
0.000786517     0.121655      80.5377 
0.000778718      1.00658      49.0283 
0.000781841     0.986712      72.2996 
0.00219086      1.21211      52.3738 
0.00923408    0.0848528      135.000 
0.00584685      1.10941      56.0235 
0.000738007     0.356090      51.8428 
0.00484026      1.01980      48.1798 
0.000726338     0.980816      73.4127 
0.00191932     0.164924      75.9638 
 0.0112375      1.67260      63.7413 
0.00200486     0.975295      74.5388 
0.000659849      3.18823      66.3295 
0.00601009      1.22442      51.6325 
0.00662891      1.16482      74.0546 
0.000632377      3.21459      66.1461 
0.000627660     0.340588      49.7636 
0.000625168      3.03592      66.3058 
0.000620351      1.25539      67.5206 
0.000618475      2.84007      70.6719 
0.00540439      1.15948      75.0049 
0.00322948      3.22273      65.8209 
0.00437907     0.509902      41.8202 
0.00289368     0.970155      75.6773 
0.00113682      3.02576      65.8068 
0.00113021      2.82121      70.5374 
0.00150610      2.55539      67.4491 
0.00251875      3.01582      65.3045 
0.00379343      3.23098      65.4973 
0.000520709      2.53693      67.2759 
0.00161244     0.950789      75.3791 
0.000990583      2.81460      70.9213 
0.000963196     0.733757      72.5528 
0.00198130     0.610574      58.3925 
0.00219893      1.26649      68.7026 
0.00478205      2.52927      67.6938 
0.000728799     0.495177      43.3634 
0.00323496      1.23693      50.9061 
0.00403818     0.965402      76.8274 
0.00294009      1.01863      46.5911 
0.000927090     0.161245      82.8750 
0.000476551     0.353836      47.2906 
0.00189739     0.945939      76.5514 
0.000452549      3.13088      67.8588 
0.000854935      2.80813      71.3070 
0.00202086      3.01470      64.4549 
0.000912825     0.747262      74.4759 
0.00322815      3.61386      67.5509 
0.000729250    0.0894427      116.565 
0.000399058     0.496790      40.1009 
0.000742247      3.10483      68.0615 
0.000389545     0.353836      42.7094 
0.000738815      2.82708      71.4369 
0.00105074      1.09289      55.4375 
0.00100179      1.01823      45.0000 
-0.00621749      1.91050      59.1391 
0.000418579     0.766551      74.8760 
0.000951278     0.593633      57.3808 
0.000679768     0.160000      90.0000 
0.000364776      2.73854      71.6974 
0.00196408     0.512250      38.6598 
-0.00194264      3.47701      66.9745 
0.00448878      3.14941      67.9959 
0.00103393      3.00540      63.9465 
-0.00215473      3.73149      71.5651 
0.000334323      1.01863      43.4089 
-0.00408557      3.48488      66.6719 
0.000625384      2.71956      71.5651 
0.000321394     0.368782      40.6013 
0.000629018     0.961041      77.9885 
0.00227299      3.01423      63.6050 
0.000886827      2.59237      67.7882 
0.00113523      3.22967      64.7045 
0.000313276      2.83979      71.9479 
0.000692714     0.761577      76.3287 
-0.000307839      2.39140      75.9638 
-0.00188683      3.68402      59.6764 
0.00148815     0.420000      90.0000 
0.000298351     0.500000      36.8699 
-0.000580502      2.39633      75.4998 
0.000293871      1.66373      62.8189 
0.000552305     0.180000      90.0000 
0.000289338      2.73233      72.0956 
0.000725077      1.03247      45.7848 
0.000286125      1.62012      61.2202 
0.000730933     0.384187      38.6598 
0.00303927     0.516140      35.5377 
0.000797285      2.71330      71.9657 
0.000531514      1.00499      42.5805 
0.00138492      2.88278      60.9454 
0.000274284      2.85881      72.0721 
-0.00385489      2.38210      74.9136 
0.000772673      1.61245      60.2551 
0.00250095      1.01980      41.8202 
0.000499320     0.781025      76.6755 
0.000496806      3.17547      67.7965 
0.000731126      2.87179      72.5746 
0.00217017      1.90924      67.1955 
0.000472248      2.46966      65.0952 
0.00256769      3.60627      67.8446 
0.000445744      1.24788      68.3691 
0.000483311      2.70718      72.3682 
0.00115489     0.440000      90.0000 
0.000696308      3.02318      63.2654 
0.00153145      2.60346      68.3621 
-0.000475828      2.19572      69.7494 
0.00100780      1.09836      56.8887 
0.000445188      3.08869      60.9454 
0.000898686      1.68190      64.6538 
0.000235137      2.47814      64.6758 
0.000620953     0.583095      59.0362 
0.000637380     0.181108      96.3402 
0.000969903      2.72029      72.8973 
-0.00328777      2.21450      69.9285 
0.000229859      2.58488      68.1986 
0.00224639      2.70185      75.8609 
0.00111842      3.09845      60.6221 
0.000789042      2.46876      64.0577 
0.000807465      1.59512      59.8987 
0.000594316      2.46008      64.4766 
0.00111297      3.23827      64.3845 
0.000410026      2.86587      72.9561 
0.000788958      3.02338      64.1130 
0.000293458      2.57992      60.2551 
0.00146724      3.27634      72.2287 
0.000208178      2.54032      68.2824 
0.000372570      2.56258      60.0333 
0.00129443      1.69163      65.5560 
0.000388892     0.566039      57.9946 
-0.00210757      3.49543      67.1027 
-0.000566375      3.06203      56.7251 
0.00192349      2.59615      68.7723 
0.000947528      2.57263      59.6474 
-0.000359644      3.55128      64.3008 
-0.00140426      3.14350      75.2564 
0.000191297      2.53298      68.7026 
0.000373359      1.90158      67.7510 
0.00103896      3.74817      64.3921 
0.000187409      2.61480      68.9310 
0.000533641      2.86007      73.3391 
0.000684373      1.60524      59.2811 
0.000346497      1.24065      69.2277 
0.000337633     0.538516      58.6713 
0.000178504      3.24697      64.0663 
0.000177647      1.89410      68.3109 
0.000337025     0.200998      95.7106 
0.000834140      2.76268      57.1152 
-0.00100585      3.07877      56.9293 
0.000174684      2.89254      60.5991 
0.000174621      2.52579      69.1254 
0.000173329      1.88680      68.8753 
0.000502890      3.32006      61.5824 
0.000659750      2.45080      63.8532 
-0.000822178      2.36812      74.3205 
0.000163481     0.555698      59.7436 
0.000163288      2.50503      70.4077 
-0.000482095      2.20273      69.2613 
0.000322623      1.87968      69.4440 
0.000162431      1.70176      66.4477 
0.000161930      2.85440      73.7237 
0.000158443      1.58808      58.9125 
0.000158226      1.69387      67.0679 
0.000158048     0.957079      79.1597 
0.000157982     0.344093      35.5377 
0.000156937     0.532541      34.2869 
0.000157430      2.49840      70.8398 
0.00578089     0.100000     -90.0000 
0.000447964     0.689638      73.1416 
0.000427451     0.987927      68.6294 
0.000796066     0.695701      71.5650 
0.00143787     0.907083      75.9638 
0.000357666      1.00319      66.5014 
0.000670165     0.116619      30.9638 
0.000336441     0.714703      72.0721 
0.000313322      1.02956      65.9245 
0.000302691     0.428019      37.4054 
0.000297970     0.708802      73.6105 
0.00124948     0.902441      77.1957 
0.000545185     0.935094      48.4682 
0.000276813     0.107703      21.8014 
0.000277081      1.03788      64.9164 
0.000696645     0.432666      33.6901 
0.000249432     0.141421     -135.000 
0.000466352     0.948472      47.5638 
0.000647116      1.04785      66.3706 
0.000450642     0.100000      36.8699 
0.00121527      2.56031      61.0323 
0.000234301     0.107703     -68.1986 
0.000990920      1.23434      49.6001 
0.000646807      2.87513      60.4034 
0.000330310     0.703420      75.1735 
0.000423042     0.156205     -140.194 
0.00146532     0.640000      90.0000 
0.000958371     0.116619     -59.0362 
0.00201942      3.25779      61.3895 
0.000187581     0.975910      45.8303 
0.000365894     0.172047     -144.462 
0.000926535     0.449444      32.2756 
0.000491590      1.06621      66.8014 
0.000320996      2.54283      60.8141 
0.00194551     0.188680     -147.995 
0.000163121     0.989949      45.0000 
0.000162738      3.55421      68.1986 
0.00111242      1.70880      73.6861 
0.000538374     0.921954      77.4712 
0.000894561      1.24740      48.9005 
0.00205797      3.56545      68.6164 
0.00171714     0.660000      90.0000 
0.000149518      2.55265      60.4222 
0.000142500      2.52539      60.5928 
0.000142144    0.0848528      45.0000 
0.000366641      1.39556      64.5367 
0.000883893     0.128062     -51.3402 
0.000591463      2.53527      60.1991 
0.00276474     0.188680      147.995 
0.000131245      2.81311      60.1541 
0.000418414      1.05849      67.7965 
0.000820043     0.282843      8.13010 
0.000121711      2.80321      60.5086 
0.000122017      1.03479      41.0818 
0.00107423      3.27536      61.5571 
0.000439880      2.40882      60.6682 
0.000224503      3.55820      68.9162 
0.000219145      1.70329      74.3318 
0.000215143      1.04995      40.3645 
0.000379785      3.27768      73.3342 
0.000283420      1.87040      65.3532 
0.000277738      2.77597      60.6647 
0.000287337      1.71732      75.1545 
0.000318264     0.898221      78.4399 
0.000856625     0.141421     -45.0000 
0.000991143      1.24579      47.6026 
0.000337203      1.06527      39.6678 
0.000169730      1.38708      65.2826 
0.000308802      2.39908      61.0846 
0.000274965      1.08462      67.2176 
0.000605701      1.71231      75.8014 
0.000157580      1.87883      64.7989 
0.000141147      1.23240      48.2892 
0.000348277      3.27200      73.6698 
0.000342258     0.466476      30.9638 
0.000194791      2.74875      60.8239 
0.000547412      2.18769      75.7097 
7.17289e-05      3.24992      60.9111 
7.04988e-05      1.36894      64.9325 
0.000310815      1.08074      38.9910 
0.000135282      1.88743      64.2495 
0.000135382      3.18025      60.2104 
0.000247822     0.156205     -39.8056 
0.000107326      2.58990      59.8710 
0.000637005      1.70751      76.4521 
-0.00112540     0.260000      67.3801 
0.000120548      1.89621      63.7052 
0.000744952      3.16291      60.0304 
-0.000490631      2.91239      66.9564 
0.000111787      1.36059      65.6955 
0.000113919      3.09458      69.5740 
0.000351525      3.28353      62.0302 
0.000106768      1.90515      63.1660 
-0.00100863      1.14438      84.9869 
0.000151664      3.26644      74.0064 
0.000106728     0.868332      51.5463 
0.000330476      3.10161      69.2277 
-0.000493084     0.268328      63.4349 
5.18357e-05     0.878635      78.1785 
0.000140608      1.09636      38.3333 
0.000230795      2.73905      61.1892 
-0.00152957     0.278568      68.9625 
0.000143565     0.880909      50.5275 
0.000139507      1.37884      66.0375 
0.000225081      3.57279      68.3177 
-0.000456685      3.76431      70.1209 
0.000132645      1.91426      62.6318 
4.93049e-05     0.859069      77.9052 
-0.000928838      2.92027      66.5953 
4.81010e-05     0.286356      12.0948 
4.62677e-05      3.15297      60.3453 
-0.000709722      3.01204      56.0989 
0.000204310      2.01445      60.8901 
0.000352119      2.20708      75.8378 
0.000128856     0.874757      79.4608 
4.45495e-05      2.71190      61.3558 
8.83303e-05     0.481664      41.6335 
8.38253e-05      3.26098      74.3442 
-4.29273e-05      2.37192      70.8012 
0.000159083      3.26588      61.8656 
4.17975e-05     0.742159      75.9638 
0.000188302      2.06708      61.6992 
-0.000855345      2.04362      69.9690 
0.000184179      3.13560      60.1645 
-4.12461e-05      2.37857      70.3462 
0.000269099      2.69436      61.1519 
7.74828e-05     0.896437      51.3402 
4.04457e-05      1.92354      62.1027 
0.000150052      2.60722      60.0916 
0.000184615      3.09011      68.7495 
7.59598e-05      3.25564      74.6831 
7.67680e-05     0.722772      75.5792 
0.000185154      1.72070      70.3014 
0.000147916     0.894427      79.6952 
0.000112063      1.72754      69.6769 
3.60571e-05      2.71190      75.0414 
3.53520e-05      2.62458      60.3093 
7.00177e-05      3.27420      62.3393 
-6.86068e-05      3.77831      60.8570 
6.90899e-05      2.67686      60.9454 
3.45021e-05      3.25042      75.0232 
0.000102719      1.71593      68.8187 
3.43549e-05     0.909065      50.3558 
6.84352e-05      1.71814      77.9052 
3.40681e-05      2.71713      74.6339 
3.37635e-05     0.891067      80.9605 
0.00161878     0.101980     -78.6901 
0.000416967      2.43877      59.4392 
0.000263913      1.99700      60.6110 
0.000198081     0.680000      90.0000 
0.000192027      1.45836      47.7792 
0.000160580      2.44900      59.0362 
-0.000181805     0.216333      56.3099 
-0.000141709     0.205913      60.9454 
3.51058e-05      3.08551      74.9729 
0.000247045      1.97960      60.3269 
0.000156716      3.06620      74.8760 
-0.00104342     0.188680      57.9946 
9.42713e-05      1.18929      42.2737 
0.000120449      3.19331      62.7930 
-0.000199926      2.91321      54.7824 
0.000112179      1.17593      41.5526 
0.000169657     0.620000      90.0000 
8.24942e-05      3.18478      62.3085 
-2.71393e-05      3.99890      62.2815 
-5.47679e-05     0.161245      60.2551 
2.67018e-05      2.45935      58.6367 
0.00128184     0.791202     -110.726 
0.000766179     0.809938     -110.225 
0.000439328     0.533667     -102.995 
0.000786359      3.70195      88.1424 
0.000541870      1.11803     -116.565 
-0.000188860      6.38000      136.397 
0.000679735     0.519230     -105.642 
-0.000178944      6.36622      136.528 
0.000750647      2.37697      30.8811 
-0.000316373      6.36553      136.273 
0.000762455      5.35649      131.367 
0.000472215      3.70265      87.8331 
0.000622480      2.73642      37.8750 
-0.000609816      2.19545     -173.199 
-0.000602513      1.76647      149.370 
-0.000605629      3.27915      10.8987 
-0.000441186      2.38663     -166.430 
-0.000315475      6.38075      136.651 
-0.000308928      2.63879     -104.036 
0.000583997      4.67611     -16.6523 
-0.000446986      3.22441      135.000 
0.000303970      1.13596     -116.114 
-0.000433659      4.47754     -57.5877 
-0.000432569      5.53610      137.782 
0.000285457     0.651153      132.510 
0.000281512      3.68022     -37.4927 
-0.000279293      3.91004      104.818 
-0.000279066      2.11244     -108.778 
0.000143573      3.47287      32.7749 
0.000277747     0.514198     -103.496 
0.000141602      6.17275     -127.761 
-0.000139744      2.64915     -94.7636 
0.000139460      3.80410      126.448 
-0.000139226      6.41090      137.149 
-0.000138749      2.64371     -104.457 
-0.000137168     0.493964     -148.241 
-0.000135553      5.68074      55.4707 
0.000135416      5.13256     -32.2657 
-0.000134584      5.56737      138.349 
0.000134577      3.50051      32.8729 
-0.000133951      2.68924      120.379 
0.000133582      1.27906      9.90418 

select Q, 1, 8
! Flux (Jy) Radius (mas)  Theta (deg)  Major FWHM (mas)  Axial ratio   Phi (deg) T \
! Freq (Hz)     SpecIndex
-0.000984815     0.670820      63.4349 
-0.000490955     0.948472      65.0561 
-0.00129857     0.939149      63.4349 
-0.000447108     0.672309      59.6209 
-0.00208478     0.680000      61.9275 
-0.000384884     0.404475      81.4692 
-0.00135220     0.930376      64.5367 
-0.000733833     0.566392      47.8624 
-0.00208518     0.407922      78.6901 
-0.000912063     0.551725      46.4688 
-0.00414060     0.948472      42.4362 
-0.000610594     0.940213      66.1613 
-0.00282980     0.921954      65.6589 
0.00258434      2.68924      59.6209 
-0.000709440     0.538145      48.0128 
-0.000255028     0.962081      43.3153 
0.000257405      1.17644      54.6888 
0.00425349      1.18811      53.9017 
0.00182434      3.66742      64.1336 
-0.00167417      2.43483      65.7508 
-0.000863919      3.07584      69.4440 
-0.00120017     0.412311      75.9638 
0.000944690      1.54777      64.7595 
-0.000600057      1.03228      54.4623 
0.000938134      1.12446      84.8978 
-0.000207818     0.689638      60.4612 
-0.00133255     0.325576      42.5104 
-0.00244877      3.37295      62.0674 
-0.00259847      1.46000      48.8879 
-0.000678217     0.524976      49.6355 
-0.00160936      3.06888      69.7936 
-0.000184032      2.31534      70.3129 
0.000515057      2.50392      58.7223 
0.00185339      3.67619      63.8532 
-0.000943078      2.30868      70.7802 
-0.000173842      1.03730      56.0035 
0.000317046      1.43569      71.3126 
-0.000909481      2.44311      65.3231 
-0.000167331     0.932309      67.2856 
-0.00105349      1.04862      55.0975 
0.000909408      1.72534      55.3889 
0.00134762     0.787909      66.0375 
-0.000900704     0.913893      66.8014 
-0.000728615      3.49914      65.3392 
0.000728665      3.07688      63.7681 
0.000291510      1.14438      84.9869 
0.000436288      2.49359      59.1151 
-0.000294138      3.82298      60.8872 
0.000436543     0.720000      90.0000 
-0.000429620      3.33730      76.1303 
0.000283308      1.55756      65.7387 
0.000208972      3.06620      74.8760 
-0.000284091     0.947629      44.1449 
0.000280914      2.18888      70.2405 
0.000143523      1.35085      64.5731 
-0.000280351      1.34937      78.0239 
-0.000279905     0.512250      51.3402 
0.000277466      3.04690      74.7779 
0.000140347      1.85925      78.2066 
0.000140177      3.11853      57.8388 
-0.000471414      3.64071      64.2795 
-0.000946124     0.682642      58.1726 
-0.000235359      3.32036      65.4418 
-0.000394310      2.94333      64.6538 
-0.000396697     0.693397      56.7683 
-9.97092e-05      3.64944      63.9967 
-0.000482599      3.65874      64.4155 
-0.000182319      2.93483      65.0067 
-0.000416686      2.86049      69.5377 
-0.000724260      3.96232      63.3056 
-0.000372987      2.93394      64.1336 
-0.000184769      3.21646      68.8602 
0.000983246     0.604649      34.2157 
-0.000525624      2.67978      57.4960 
0.000191164      1.19616      69.4440 
-0.000307672     0.676757      55.8403 
0.000740193     0.898221      78.4399 
-0.000225367     0.665733      57.2648 
0.000783067     0.909065      39.6442 
0.000543969      1.20333      68.5523 
-0.000169054      2.69058      57.1368 
-0.000101627     0.704557      55.4077 
-0.000100855     0.635295      61.8214 
-9.49030e-05      2.85356      69.9140 
-0.000138116     0.716101      54.0903 
-9.36143e-05     0.626099      63.4349 
-0.000679303      1.36894      78.1976 
-0.000341412     0.282843      98.1301 
-0.000262712     0.599333      64.2900 
-0.000255425      3.22800      69.3193 
-0.000219678      2.32362      76.5618 
-0.000255916      1.81571      63.1527 
-0.000273835     0.728011      52.8153 
-0.000185766      2.94272      63.7832 
-8.24446e-05      1.25252      51.4831 
-0.000391444      1.22442      51.6325 
0.000344196      3.64955      59.3593 
-0.000107908      2.34307      76.6755 
-0.000171345      3.97135      63.0478 
0.000198299      3.14350      75.2564 
0.000197381      1.83848      75.5102 
-3.46909e-05      2.55766      74.1161 
-0.000163929     0.740270      51.5819 
-6.39996e-05      3.36506      65.4151 
0.000126620     0.902441      77.1957 
9.52439e-05      2.47386      67.1663 
-3.13849e-05      2.83478      69.7751 
-3.12638e-05     0.590931      66.0375 
-0.000493230     0.342345      96.7098 
0.000447995      1.11212      37.6942 
0.000401764      3.61519      59.0362 
-0.000106111      3.54559      66.0375 
-0.000126592      1.50625      79.2869 
-0.000159652      3.52732      65.9056 
-6.66442e-05      2.50192      57.0721 
9.83636e-05     0.188680     -147.995 
-3.35685e-05      3.55376      65.7428 
-3.10916e-05      3.50907      65.7723 
0.000572041      4.91955      116.044 
0.000351898      2.07200     -36.7593 
0.000264198      5.79327     -131.781 
0.000172962      3.51778     -144.955 
-0.000471234      4.43017      176.117 
0.000542947      5.71710     -54.2526 
-0.000174813      4.15933     -43.4413 
-0.000395737      2.86342     -92.8025 
8.78879e-05      3.52278     -145.408 
-0.000242442      3.63208      16.6388 
8.33432e-05      3.18955     -146.509 
0.000227901      4.96004      53.3611 
-0.000158412      5.76378      61.3895 
7.99560e-05      5.67493     -130.426 
-0.000222165      4.14483     -43.6314 
-0.000290731      4.01128      97.1605 
-0.000222138      2.77950     -166.264 
7.83450e-05      1.78986     -18.2325 
7.76665e-05      1.98977     -39.2894 
-7.73893e-05      5.06585     -172.286 
7.69778e-05      2.40416     -16.9275 
0.000145257      3.17289     -146.310 
-0.000146951      4.93173     -176.047 
0.000210603      5.64673     -130.403 
0.000211045      3.75089      109.304 
7.36353e-05      2.08806     -36.4309 
-0.000143319      4.24834     -39.4602 
7.31437e-05      4.94813      53.5470 
7.29201e-05      5.80662     -131.929 
0.000138114      3.53418     -145.141 
0.000141248      2.09609     -48.0941 
7.19753e-05      1.77088     -18.4349 
-7.16986e-05      5.75423      61.5644 
-7.14518e-05      3.62640      16.3360 
-7.09376e-05      2.88250     -92.3859 
7.08314e-05      2.42330     -16.7898 
7.02281e-05      3.50343      139.399 
7.02661e-05      4.34534      54.5543 
-0.000134186      3.75281     -73.5932 
-6.83278e-05      5.06857     -172.062 
-6.82556e-05      5.52757      63.3422 
6.81639e-05      4.86806     -77.9052 
6.82315e-05      2.20045     -25.8664 
-6.70490e-05      5.14782      102.794 
-6.67661e-05      4.10122     -128.267 
-6.66188e-05      3.64560      16.2476 
6.60073e-05      3.51648      139.151 
6.57690e-05      4.79533      62.1524 
6.52463e-05      3.81182      48.6161 
6.51622e-05      2.09246     -35.6650 

select U, 1, 8
! Flux (Jy) Radius (mas)  Theta (deg)  Major FWHM (mas)  Axial ratio   Phi (deg) T \
! Freq (Hz)     SpecIndex
0.00578020      1.14280      57.1443 
0.00301696      1.14909      58.5232 
0.00312809      1.13208      57.9946 
0.00154714      1.15966      57.6804 
0.000681118      1.21803      60.4885 
0.00233228      1.23548      60.9454 
0.00121366      1.11517      57.4500 
0.00205339      1.10454      58.3245 
0.00570645      1.25300      61.3895 
0.00275787      1.08757      57.7712 
0.00301736      1.07703      58.6713 
0.00331007     0.898888      57.7244 
-0.000553185     0.727186      58.4957 
-0.00102515     0.254558      45.0000 
-0.00251639     0.737835      57.1715 
0.00188624     0.126491      18.4349 
0.000877109      1.07424      61.0490 
-0.00161622     0.240832      48.3665 
-0.000774492     0.626099      63.4349 
0.000768129      3.00433      72.1681 
0.00127103      1.06471      61.9908 
0.00238391      3.28274      62.8105 
-0.00266678     0.748866      55.8855 
-0.000781933      3.23110      58.6713 
-0.000833046      3.59650      62.1524 
-0.000323767      1.31469      76.8094 
0.00134326     0.100000      36.8699 
0.00147683      3.01051      71.8058 
-0.000487507      1.31939      75.9638 
0.000732631      2.75536      62.3189 
-0.000299386     0.617414      65.0952 
0.000758260      1.05546      62.9494 
-0.000157867      3.64993      70.4729 
0.000715861      1.09836      56.8887 
0.000307122      1.59512      59.8987 
-0.00113213      2.68812      70.8910 
-0.000843413      2.71360      57.9499 
-0.000706074     0.845931      83.2110 
-0.000153912      1.35558      68.3556 
0.000431010     0.893085      55.9541 
-0.00111943      3.60494      62.5820 
0.000562772      3.70297      63.7117 
0.000707268     0.593633      32.6192 
-0.000974904      1.36308      67.5741 
-0.000556786      3.63786      70.0707 
-0.000284351      2.29965      74.8760 
-0.000420348      1.73770      78.0434 
0.000276284      1.25220      63.4349 
0.000542333      1.10345      43.5312 
-0.000410723     0.228035      52.1250 
0.000816544      1.04652      63.9246 
0.000273730      1.60524      59.2811 
0.000397480      1.58493      79.8245 
-0.000263419      1.31027      77.6609 
-0.000262231      3.06790      63.2679 
-0.000261722     0.760263      54.6375 
-0.000130572      3.30491      74.1975 
0.000130318      2.92971      60.1096 
0.000479601      1.26570      58.5704 
0.000200602      1.26270      60.5928 
0.000190892      1.27624      57.8043 
0.000237915      1.24338      64.2593 
0.000158709      1.28701      57.0508 
0.000225132      1.29275      55.0806 
6.69435e-05      1.23483      65.0952 
0.000173064      1.24483      66.3179 
0.000620093      1.74264      80.7539 
0.000116306      1.30430      54.3602 
-0.000222589     0.590931      66.0375 
0.000107207      1.01607      53.8068 
0.000193921      1.72290      80.6470 
0.000566751      3.75755      70.4077 
-0.000535875     0.599333      64.2900 
0.000144707      1.00000      53.1301 
0.000172472      1.23693      67.1663 
0.000382810     0.583095      30.9638 
-0.000412167      2.70703      71.0296 
4.69588e-05     0.824621      39.0939 
0.000493863     0.145602      105.945 
0.000200896     0.988130      54.0579 
0.000200580     0.840238      38.2338 
7.59133e-05      1.22654      65.9427 
0.000224931     0.116619     -59.0362 
-0.000321626     0.608276      62.5924 
6.95314e-05      1.28810      53.8418 
3.57181e-05     0.972008      53.3659 
-0.000215515      1.72627      63.1381 
0.000226960     0.960208      54.3236 
-0.000178857     0.342345      96.7098 
0.000123691      3.05110      57.0391 
-0.000185413     0.617738      60.9454 
9.09664e-05      1.10454      84.8056 
-8.63793e-05      3.07688      74.1569 
5.72440e-05      1.21852      66.8014 
0.000114531     0.944034      53.6156 
-2.87901e-05     0.610574      58.3925 
-5.59097e-05     0.621289      56.8215 
2.77324e-05      3.05712      57.5576 
2.72165e-05      1.66012      53.8204 
0.000124546      3.94452      63.8247 
-2.67407e-05     0.220907     -5.19443 
0.000769635      1.84141      81.2538 
0.000442950      3.71295      72.4435 
0.000300477      1.14438      84.9869 
0.000210025      3.04532      56.5187 
5.34448e-05      3.02866      56.3099 
0.000233454     0.872009      36.6071 
0.000159413      1.69257      54.6197 
0.000158385      2.91321      54.7824 
6.83328e-05     0.172047     -144.462 
4.48548e-05      3.06203      56.7251 
6.14581e-05      3.95338      63.5646 
6.17330e-05     0.188680     -147.995 
2.02952e-05      3.07877      56.9293 
0.000500598      3.90118     -164.539 
-0.000390491      4.80300     -102.995 
0.000468105      4.14005      179.723 
-0.000452793      3.67129     -11.3099 
-0.000436290      5.80848      28.5947 
-0.000155732      4.82249     -102.941 
-8.13579e-05      4.59796      71.4862 
0.000151204      5.90474     -132.117 
-0.000354061      4.82800      143.083 
0.000223431      5.08873      83.9085 
-0.000221951      4.58541      71.1699 
0.000216222      4.24500      173.779 
0.000277416      3.45954     -108.540 
-0.000210919      2.20771      160.416 
0.000142608      5.88992     -132.248 
0.000140420      3.62066      12.1169 
-0.000209707      5.12644      5.82180 
-0.000204895      2.46982     -15.4993 
-0.000141701      4.03633      126.132 
0.000203264     0.384708     -117.897 
-0.000199113      6.90188      44.2956 
0.000136438     0.984886     -29.1676 
0.000135848      4.38985      21.6560 
6.91659e-05      3.90656     -164.256 
0.000133173      3.82079     -109.573 
6.89142e-05     0.905539     -46.7899 
0.000133354      3.56438      37.7058 
-0.000131675      5.23209      19.8895 
-0.000132309      4.57900      71.4068 
0.000129372      5.09089      83.6847 
0.000129559      1.80178      92.5448 
6.59170e-05      3.97311     -163.025 
-6.53075e-05      4.04816      126.360 
-6.51093e-05      4.63810     -66.0877 
-6.49321e-05      5.88782     -38.9334 
-6.44537e-05      3.54790      23.2410 
6.38748e-05      4.19528     -163.379 
6.36060e-05      4.86625      125.127 
6.31317e-05      2.80856     -72.5973 
6.26963e-05     0.919348     -45.8814 
